{
  "resourceType": "Bundle",
  "id": "demo-patient-summary-bundle",
  "type": "document",
  "timestamp": "2024-01-01T12:00:00Z",
  "entry": [
    {
      "resource": {
        "resourceType": "Composition",
        "id": "demo-composition",
        "status": "final",
        "type": {
          "coding": [
            {
              "system": "http://loinc.org",
              "code": "60591-5",
              "display": "Patient Summary Document"
            }
          ]
        },
        "subject": {
          "reference": "Patient/demo-patient"
        },
        "date": "2024-01-01T12:00:00Z",
        "author": [
          {
            "reference": "Practitioner/demo-practitioner"
          }
        ],
        "title": "Patient Summary Document",
        "section": [
          {
            "title": "Active Problems",
            "code": {
              "coding": [
                {
                  "system": "http://loinc.org",
                  "code": "11450-4",
                  "display": "Problem list"
                }
              ]
            },
            "entry": [
              {
                "reference": "Condition/hypertension"
              },
              {
                "reference": "Condition/diabetes"
              }
            ]
          },
          {
            "title": "Current Medications",
            "code": {
              "coding": [
                {
                  "system": "http://loinc.org",
                  "code": "10160-0",
                  "display": "History of Medication use"
                }
              ]
            },
            "entry": [
              {
                "reference": "MedicationStatement/metformin"
              },
              {
                "reference": "MedicationStatement/lisinopril"
              }
            ]
          },
          {
            "title": "Allergies and Intolerances",
            "code": {
              "coding": [
                {
                  "system": "http://loinc.org",
                  "code": "48765-2",
                  "display": "Allergies"
                }
              ]
            },
            "entry": [
              {
                "reference": "AllergyIntolerance/penicillin-allergy"
              }
            ]
          },
          {
            "title": "Vital Signs",
            "code": {
              "coding": [
                {
                  "system": "http://loinc.org",
                  "code": "8716-3",
                  "display": "Vital signs"
                }
              ]
            },
            "entry": [
              {
                "reference": "Observation/blood-pressure"
              },
              {
                "reference": "Observation/heart-rate"
              },
              {
                "reference": "Observation/weight"
              }
            ]
          }
        ]
      }
    },
    {
      "resource": {
        "resourceType": "Patient",
        "id": "demo-patient",
        "identifier": [
          {
            "system": "urn:oid:1.3.6.1.4.1.12559.11.10.1.3.1.1.3",
            "value": "DEMO123"
          }
        ],
        "name": [
          {
            "use": "official",
            "family": "Patient",
            "given": ["Demo"]
          }
        ],
        "gender": "male",
        "birthDate": "1985-03-15",
        "address": [
          {
            "use": "home",
            "line": ["123 Main Street"],
            "city": "Berlin",
            "postalCode": "10115",
            "country": "Germany"
          }
        ],
        "telecom": [
          {
            "system": "phone",
            "value": "+49-30-12345678",
            "use": "home"
          },
          {
            "system": "email",
            "value": "demo.patient@example.de",
            "use": "home"
          }
        ],
        "maritalStatus": {
          "coding": [
            {
              "system": "http://terminology.hl7.org/CodeSystem/v3-MaritalStatus",
              "code": "M",
              "display": "Married"
            }
          ]
        }
      }
    },
    {
      "resource": {
        "resourceType": "Practitioner",
        "id": "demo-practitioner",
        "identifier": [
          {
            "system": "urn:oid:1.2.3.4.5.6.7.8.9",
            "value": "DOC001"
          }
        ],
        "name": [
          {
            "family": "Mueller",
            "given": ["Dr. Hans"]
          }
        ],
        "qualification": [
          {
            "code": {
              "coding": [
                {
                  "system": "http://snomed.info/sct",
                  "code": "309343006",
                  "display": "Physician"
                }
              ]
            }
          }
        ]
      }
    },
    {
      "resource": {
        "resourceType": "Organization",
        "id": "demo-organization",
        "identifier": [
          {
            "system": "urn:oid:1.2.3.4.5.6.7.8.9",
            "value": "HOSPITAL001"
          }
        ],
        "name": "Berlin University Hospital",
        "telecom": [
          {
            "system": "phone",
            "value": "+49-30-98765432",
            "use": "work"
          }
        ],
        "address": [
          {
            "use": "work",
            "line": ["Hospital Main Street 1"],
            "city": "Berlin",
            "postalCode": "10117",
            "country": "Germany"
          }
        ]
      }
    },
    {
      "resource": {
        "resourceType": "Condition",
        "id": "hypertension",
        "clinicalStatus": {
          "coding": [
            {
              "system": "http://terminology.hl7.org/CodeSystem/condition-clinical",
              "code": "active"
            }
          ]
        },
        "code": {
          "coding": [
            {
              "system": "http://snomed.info/sct",
              "code": "38341003",
              "display": "Hypertension"
            }
          ],
          "text": "Hypertension"
        },
        "subject": {
          "reference": "Patient/demo-patient"
        },
        "onsetDateTime": "2020-03-15",
        "recordedDate": "2020-03-15"
      }
    },
    {
      "resource": {
        "resourceType": "Condition",
        "id": "diabetes",
        "clinicalStatus": {
          "coding": [
            {
              "system": "http://terminology.hl7.org/CodeSystem/condition-clinical",
              "code": "active"
            }
          ]
        },
        "code": {
          "coding": [
            {
              "system": "http://snomed.info/sct",
              "code": "44054006",
              "display": "Type 2 diabetes mellitus"
            }
          ],
          "text": "Type 2 Diabetes Mellitus"
        },
        "subject": {
          "reference": "Patient/demo-patient"
        },
        "onsetDateTime": "2019-08-22",
        "recordedDate": "2019-08-22"
      }
    },
    {
      "resource": {
        "resourceType": "MedicationStatement",
        "id": "metformin",
        "status": "active",
        "medicationCodeableConcept": {
          "coding": [
            {
              "system": "http://www.nlm.nih.gov/research/umls/rxnorm",
              "code": "6809",
              "display": "Metformin"
            }
          ],
          "text": "Metformin 500mg"
        },
        "subject": {
          "reference": "Patient/demo-patient"
        },
        "effectivePeriod": {
          "start": "2019-08-22"
        },
        "dosage": [
          {
            "text": "500mg twice daily",
            "timing": {
              "repeat": {
                "frequency": 2,
                "period": 1,
                "periodUnit": "d"
              }
            },
            "route": {
              "coding": [
                {
                  "system": "http://snomed.info/sct",
                  "code": "26643006",
                  "display": "Oral"
                }
              ]
            },
            "doseAndRate": [
              {
                "doseQuantity": {
                  "value": 500,
                  "unit": "mg"
                }
              }
            ]
          }
        ]
      }
    },
    {
      "resource": {
        "resourceType": "MedicationStatement",
        "id": "lisinopril",
        "status": "active",
        "medicationCodeableConcept": {
          "coding": [
            {
              "system": "http://www.nlm.nih.gov/research/umls/rxnorm",
              "code": "29046",
              "display": "Lisinopril"
            }
          ],
          "text": "Lisinopril 10mg"
        },
        "subject": {
          "reference": "Patient/demo-patient"
        },
        "effectivePeriod": {
          "start": "2020-03-15"
        },
        "dosage": [
          {
            "text": "10mg once daily",
            "timing": {
              "repeat": {
                "frequency": 1,
                "period": 1,
                "periodUnit": "d"
              }
            },
            "route": {
              "coding": [
                {
                  "system": "http://snomed.info/sct",
                  "code": "26643006",
                  "display": "Oral"
                }
              ]
            },
            "doseAndRate": [
              {
                "doseQuantity": {
                  "value": 10,
                  "unit": "mg"
                }
              }
            ]
          }
        ]
      }
    },
    {
      "resource": {
        "resourceType": "AllergyIntolerance",
        "id": "penicillin-allergy",
        "clinicalStatus": {
          "coding": [
            {
              "system": "http://terminology.hl7.org/CodeSystem/allergyintolerance-clinical",
              "code": "active"
            }
          ]
        },
        "type": "allergy",
        "category": ["medication"],
        "criticality": "high",
        "code": {
          "coding": [
            {
              "system": "http://www.nlm.nih.gov/research/umls/rxnorm",
              "code": "70618",
              "display": "Penicillin"
            }
          ],
          "text": "Penicillin"
        },
        "patient": {
          "reference": "Patient/demo-patient"
        },
        "onsetDateTime": "2015-06-01",
        "recordedDate": "2015-06-01",
        "reaction": [
          {
            "manifestation": [
              {
                "coding": [
                  {
                    "system": "http://snomed.info/sct",
                    "code": "271807003",
                    "display": "Rash"
                  }
                ],
                "text": "Rash"
              }
            ],
            "severity": "moderate"
          }
        ]
      }
    },
    {
      "resource": {
        "resourceType": "Observation",
        "id": "blood-pressure",
        "status": "final",
        "category": [
          {
            "coding": [
              {
                "system": "http://terminology.hl7.org/CodeSystem/observation-category",
                "code": "vital-signs",
                "display": "Vital Signs"
              }
            ]
          }
        ],
        "code": {
          "coding": [
            {
              "system": "http://loinc.org",
              "code": "35094-2",
              "display": "Blood pressure"
            }
          ]
        },
        "subject": {
          "reference": "Patient/demo-patient"
        },
        "effectiveDateTime": "2024-01-01",
        "component": [
          {
            "code": {
              "coding": [
                {
                  "system": "http://loinc.org",
                  "code": "8480-6",
                  "display": "Systolic blood pressure"
                }
              ]
            },
            "valueQuantity": {
              "value": 140,
              "unit": "mmHg",
              "system": "http://unitsofmeasure.org",
              "code": "mm[Hg]"
            }
          },
          {
            "code": {
              "coding": [
                {
                  "system": "http://loinc.org",
                  "code": "8462-4",
                  "display": "Diastolic blood pressure"
                }
              ]
            },
            "valueQuantity": {
              "value": 90,
              "unit": "mmHg",
              "system": "http://unitsofmeasure.org",
              "code": "mm[Hg]"
            }
          }
        ]
      }
    },
    {
      "resource": {
        "resourceType": "Observation",
        "id": "heart-rate",
        "status": "final",
        "category": [
          {
            "coding": [
              {
                "system": "http://terminology.hl7.org/CodeSystem/observation-category",
                "code": "vital-signs",
                "display": "Vital Signs"
              }
            ]
          }
        ],
        "code": {
          "coding": [
            {
              "system": "http://loinc.org",
              "code": "8867-4",
              "display": "Heart rate"
            }
          ]
        },
        "subject": {
          "reference": "Patient/demo-patient"
        },
        "effectiveDateTime": "2024-01-01",
        "valueQuantity": {
          "value": 72,
          "unit": "bpm",
          "system": "http://unitsofmeasure.org",
          "code": "/min"
        }
      }
    },
    {
      "resource": {
        "resourceType": "Observation",
        "id": "weight",
        "status": "final",
        "category": [
          {
            "coding": [
              {
                "system": "http://terminology.hl7.org/CodeSystem/observation-category",
                "code": "vital-signs",
                "display": "Vital Signs"
              }
            ]
          }
        ],
        "code": {
          "coding": [
            {
              "system": "http://loinc.org",
              "code": "29463-7",
              "display": "Body Weight"
            }
          ]
        },
        "subject": {
          "reference": "Patient/demo-patient"
        },
        "effectiveDateTime": "2024-01-01",
        "valueQuantity": {
          "value": 80,
          "unit": "kg",
          "system": "http://unitsofmeasure.org",
          "code": "kg"
        }
      }
    }
  ]
}
