{
  "resourceType": "Bundle",
  "timestamp": "2025-10-11T17:36:43.782348Z",
  "identifier": {
    "system": "http://example.org/bundle-identifier",
    "value": "bundle-001"
  },
  "type": "transaction",
  "entry": [
    {
      "fullUrl": "http://Composition/IE-comp-6afe0b93-89f1-494a-b270-a567bbd77d7d",
      "resource": {
        "resourceType": "Composition",
        "id": "IE-comp-6afe0b93-89f1-494a-b270-a567bbd77d7d",
        "status": "final",
        "type": {
          "coding": [
            {
              "system": "http://loinc.org",
              "code": "60591-5",
              "display": "Patient Summary Document"
            }
          ]
        },
        "title": "Patient Summary",
        "date": "2024-01-25T17:30:45Z",
        "subject": {
          "reference": "IE-patient-66b404e7-6769-41f3-be7a-a5253d0f1afd"
        },
        "author": [
          {
            "reference": "IE-pract-ab4763e2-669f-4ff9-a8a8-98f24ce72c26"
          }
        ],
        "custodian": {
          "reference": "IE-org-a7c45450-105a-43aa-985c-ea8bd5b0b1cc"
        },
        "section": [
          {
            "title": "History of Medication use Narrative",
            "code": {
              "coding": [
                {
                  "system": "http://loinc.org",
                  "code": "10160-0",
                  "display": "History of Medication use Narrative"
                }
              ]
            },
            "mode": "snapshot",
            "text": {
              "status": "generated",
              "div": "<div xmlns=\"http://www.w3.org/1999/xhtml\">History of Medication use Narrative section</div>"
            },
            "entry": [
              {
                "reference": "IE-medstat-21ce4629-c51a-4b9c-8e3f-39f629cccd3b",
                "display": "LANTUS Solostar INJ.SOL 100 IU/ML"
              }
            ]
          },
          {
            "title": "Allergies and other adverse reactions",
            "code": {
              "coding": [
                {
                  "system": "http://loinc.org",
                  "code": "48765-2",
                  "display": "Allergies and adverse reactions Document"
                }
              ]
            },
            "mode": "snapshot",
            "text": {
              "status": "generated",
              "div": "<div xmlns=\"http://www.w3.org/1999/xhtml\">Allergies and other adverse reactions section</div>"
            },
            "entry": [
              {
                "reference": "IE-allergy-c4f082a5-7c68-4bb9-aaaf-d6e17c93903f",
                "display": "Propensity to adverse reactions"
              },
              {
                "reference": "IE-allergy-04f8ef48-ce62-438a-8509-8a89123bc112",
                "display": "Propensity to adverse reactions"
              },
              {
                "reference": "IE-allergy-b48254be-2b92-43c8-85f5-3c07d27c34e4",
                "display": "Sitagliptin"
              },
              {
                "reference": "IE-allergy-fa29558d-5c3d-4239-8ece-10764a654f3a",
                "display": "Latex"
              }
            ]
          },
          {
            "title": "History of Procedures",
            "code": {
              "coding": [
                {
                  "system": "https://loinc.org",
                  "code": "47519-4",
                  "display": "History of Procedures"
                }
              ]
            },
            "mode": "snapshot",
            "text": {
              "status": "generated",
              "div": "<div xmlns=\"http://www.w3.org/1999/xhtml\">History of Procedures section</div>"
            },
            "entry": [
              {
                "reference": "IE-proc-818944bd-f397-403f-a571-8e9aca5f3119",
                "display": "Operative procedure on hand"
              },
              {
                "reference": "IE-proc-ab95d227-92d9-4a68-a43f-6fc99224d6c3",
                "display": "Biopsy"
              }
            ]
          },
          {
            "id": "sectionProblems",
            "title": "Problem list",
            "code": {
              "coding": [
                {
                  "system": "http://loinc.org",
                  "code": "11450-4",
                  "display": "Problem list"
                }
              ]
            },
            "mode": "snapshot",
            "text": {
              "status": "generated",
              "div": "<div xmlns=\"http://www.w3.org/1999/xhtml\">Problem list section</div>"
            },
            "entry": [
              {
                "reference": "IE-cond-5ac17b78-0ef1-4619-b33c-cf4ace34e1ce",
                "display": "Active"
              }
            ]
          },
          {
            "title": "History of medical device use",
            "code": {
              "coding": [
                {
                  "system": "https://loinc.org",
                  "code": "46264-8",
                  "display": "History of medical device use"
                }
              ]
            },
            "mode": "snapshot",
            "text": {
              "status": "generated",
              "div": "<div xmlns=\"http://www.w3.org/1999/xhtml\">History of medical device use section</div>"
            }
          }
        ]
      },
      "request": {
        "method": "PUT",
        "url": "Composition/IE-comp-6afe0b93-89f1-494a-b270-a567bbd77d7d"
      }
    },
    {
      "fullUrl": "http://AllergyIntolerance/IE-allergy-04f8ef48-ce62-438a-8509-8a89123bc112",
      "resource": {
        "resourceType": "AllergyIntolerance",
        "id": "IE-allergy-04f8ef48-ce62-438a-8509-8a89123bc112",
        "identifier": [
          {
            "use": "official",
            "system": "http://allergy.2.obs.1",
            "value": "2.16.17.710.813.1000.990.1.9"
          }
        ],
        "code": {
          "coding": [
            {
              "system": "http://snomed.info/sct",
              "code": "111088007",
              "display": "Latex"
            }
          ],
          "text": "Latex"
        },
        "clinicalStatus": {
          "coding": [
            {
              "system": "http://terminology.hl7.org/CodeSystem/allergyintolerance-clinical",
              "code": "resolved",
              "display": "resolved"
            }
          ]
        },
        "verificationStatus": {
          "coding": [
            {
              "system": "http://terminology.hl7.org/CodeSystem/allergyintolerance-verification",
              "code": "confirmed",
              "display": "confirmed"
            }
          ]
        },
        "patient": {
          "reference": "IE-patient-66b404e7-6769-41f3-be7a-a5253d0f1afd",
          "display": "Patrick Murphy"
        },
        "recordedDate": "1990-01-01",
        "reaction": [
          {
            "substance": {
              "coding": [
                {
                  "system": "http://snomed.info/sct",
                  "code": "111088007",
                  "display": "Latex"
                }
              ],
              "text": "Latex"
            },
            "manifestation": [
              {
                "coding": [
                  {
                    "system": "http://snomed.info/sct",
                    "code": "271807003",
                    "display": "Rash"
                  }
                ],
                "text": "Rash"
              }
            ]
          }
        ]
      },
      "request": {
        "method": "PUT",
        "url": "AllergyIntolerance/IE-allergy-04f8ef48-ce62-438a-8509-8a89123bc112"
      }
    },
    {
      "fullUrl": "http://AllergyIntolerance/IE-allergy-b48254be-2b92-43c8-85f5-3c07d27c34e4",
      "resource": {
        "resourceType": "AllergyIntolerance",
        "id": "IE-allergy-b48254be-2b92-43c8-85f5-3c07d27c34e4",
        "identifier": [
          {
            "use": "official",
            "system": "http://allergy.1.obs.1",
            "value": "2.16.17.710.813.1000.990.1.9"
          }
        ],
        "code": {
          "coding": [
            {
              "system": "http://snomed.info/sct",
              "code": "372687004",
              "display": "Sitagliptin"
            }
          ],
          "text": "Sitagliptin"
        },
        "clinicalStatus": {
          "coding": [
            {
              "system": "http://terminology.hl7.org/CodeSystem/allergyintolerance-clinical",
              "code": "resolved",
              "display": "resolved"
            }
          ]
        },
        "verificationStatus": {
          "coding": [
            {
              "system": "http://terminology.hl7.org/CodeSystem/allergyintolerance-verification",
              "code": "confirmed",
              "display": "confirmed"
            }
          ]
        },
        "patient": {
          "reference": "IE-patient-66b404e7-6769-41f3-be7a-a5253d0f1afd",
          "display": "Patrick Murphy"
        },
        "recordedDate": "1994-10-03",
        "reaction": [
          {
            "substance": {
              "coding": [
                {
                  "system": "http://snomed.info/sct",
                  "code": "372687004",
                  "display": "Sitagliptin"
                }
              ],
              "text": "Sitagliptin"
            },
            "manifestation": [
              {
                "coding": [
                  {
                    "system": "http://snomed.info/sct",
                    "code": "39579001",
                    "display": "Anaphylaxis"
                  }
                ],
                "text": "Anaphylaxis"
              }
            ]
          }
        ]
      },
      "request": {
        "method": "PUT",
        "url": "AllergyIntolerance/IE-allergy-b48254be-2b92-43c8-85f5-3c07d27c34e4"
      }
    },
    {
      "fullUrl": "http://AllergyIntolerance/IE-allergy-f7d33c59-7ad7-472a-a951-9400d03f9dca",
      "resource": {
        "resourceType": "AllergyIntolerance",
        "id": "IE-allergy-f7d33c59-7ad7-472a-a951-9400d03f9dca",
        "identifier": [
          {
            "use": "official",
            "system": "http://allergy.1.obs.1",
            "value": "2.16.17.710.813.1000.990.1.9"
          }
        ],
        "code": {
          "coding": [
            {
              "system": "http://snomed.info/sct",
              "code": "372687004",
              "display": "Sitagliptin"
            }
          ],
          "text": "Sitagliptin"
        },
        "clinicalStatus": {
          "coding": [
            {
              "system": "http://terminology.hl7.org/CodeSystem/allergyintolerance-clinical",
              "code": "resolved",
              "display": "resolved"
            }
          ]
        },
        "verificationStatus": {
          "coding": [
            {
              "system": "http://terminology.hl7.org/CodeSystem/allergyintolerance-verification",
              "code": "confirmed",
              "display": "confirmed"
            }
          ]
        },
        "patient": {
          "reference": "IE-patient-66b404e7-6769-41f3-be7a-a5253d0f1afd",
          "display": "Patrick Murphy"
        },
        "recordedDate": "1994-10-03",
        "reaction": [
          {
            "substance": {
              "coding": [
                {
                  "system": "http://snomed.info/sct",
                  "code": "372687004",
                  "display": "Sitagliptin"
                }
              ],
              "text": "Sitagliptin"
            },
            "manifestation": [
              {
                "coding": [
                  {
                    "system": "http://snomed.info/sct",
                    "code": "422587007",
                    "display": "Nausea"
                  }
                ],
                "text": "Nausea"
              }
            ]
          }
        ]
      },
      "request": {
        "method": "PUT",
        "url": "AllergyIntolerance/IE-allergy-f7d33c59-7ad7-472a-a951-9400d03f9dca"
      }
    },
    {
      "fullUrl": "http://AllergyIntolerance/IE-allergy-fa29558d-5c3d-4239-8ece-10764a654f3a",
      "resource": {
        "resourceType": "AllergyIntolerance",
        "id": "IE-allergy-fa29558d-5c3d-4239-8ece-10764a654f3a",
        "identifier": [
          {
            "use": "official",
            "system": "http://allergy.2.obs.1",
            "value": "2.16.17.710.813.1000.990.1.9"
          }
        ],
        "code": {
          "coding": [
            {
              "system": "http://snomed.info/sct",
              "code": "111088007",
              "display": "Latex"
            }
          ],
          "text": "#allergy.2.agent"
        },
        "clinicalStatus": {
          "coding": [
            {
              "system": "http://terminology.hl7.org/CodeSystem/allergyintolerance-clinical",
              "code": "resolved",
              "display": "resolved"
            }
          ]
        },
        "verificationStatus": {
          "coding": [
            {
              "system": "http://terminology.hl7.org/CodeSystem/allergyintolerance-verification",
              "code": "confirmed",
              "display": "confirmed"
            }
          ]
        },
        "patient": {
          "reference": "IE-patient-66b404e7-6769-41f3-be7a-a5253d0f1afd",
          "display": "Patrick Murphy"
        },
        "recordedDate": "1990-01-01",
        "reaction": [
          {
            "substance": {
              "coding": [
                {
                  "system": "http://snomed.info/sct",
                  "code": "111088007",
                  "display": "Latex"
                }
              ],
              "text": "Latex"
            },
            "manifestation": [
              {
                "coding": [
                  {
                    "system": "http://snomed.info/sct",
                    "code": "126485001",
                    "display": "Urticaria"
                  }
                ],
                "text": "Urticaria"
              }
            ]
          }
        ]
      },
      "request": {
        "method": "PUT",
        "url": "AllergyIntolerance/IE-allergy-fa29558d-5c3d-4239-8ece-10764a654f3a"
      }
    },
    {
      "fullUrl": "http://Condition/IE-cond-5ac17b78-0ef1-4619-b33c-cf4ace34e1ce",
      "resource": {
        "resourceType": "Condition",
        "id": "IE-cond-5ac17b78-0ef1-4619-b33c-cf4ace34e1ce",
        "identifier": [
          {
            "use": "official",
            "system": "http://problem.1.obs.1",
            "value": "2.16.17.710.813.1000.990.1.7"
          }
        ],
        "clinicalStatus": {
          "coding": [
            {
              "system": "http://terminology.hl7.org/CodeSystem/condition-clinical",
              "code": "active",
              "display": "Active"
            }
          ]
        },
        "verificationStatus": {
          "coding": [
            {
              "system": "http://terminology.hl7.org/CodeSystem/condition-ver-status",
              "code": "confirmed",
              "display": "Confirmed"
            }
          ]
        },
        "category": [
          {
            "coding": [
              {
                "system": "http://terminology.hl7.org/CodeSystem/condition-category",
                "code": "problem-list-item",
                "display": "Problem List Item"
              }
            ]
          }
        ],
        "code": {
          "coding": [
            {
              "system": "http://hl7.org/fhir/sid/icd-10",
              "code": "E11",
              "display": "Type 2 diabetes mellitus"
            }
          ]
        },
        "subject": {
          "reference": "IE-patient-66b404e7-6769-41f3-be7a-a5253d0f1afd",
          "display": "Patrick Murphy"
        }
      },
      "request": {
        "method": "PUT",
        "url": "Condition/IE-cond-5ac17b78-0ef1-4619-b33c-cf4ace34e1ce"
      }
    },
    {
      "fullUrl": "http://Condition/IE-cond-c2c59d06-56b4-4d53-928d-0f305081b099",
      "resource": {
        "resourceType": "Condition",
        "id": "IE-cond-c2c59d06-56b4-4d53-928d-0f305081b099",
        "identifier": [
          {
            "use": "official",
            "value": "c2c59d06-56b4-4d53-928d-0f305081b099"
          }
        ],
        "clinicalStatus": {
          "coding": [
            {
              "system": "http://terminology.hl7.org/CodeSystem/condition-clinical",
              "code": "active",
              "display": "Active"
            }
          ]
        },
        "verificationStatus": {
          "coding": [
            {
              "system": "http://terminology.hl7.org/CodeSystem/condition-ver-status",
              "code": "confirmed",
              "display": "Confirmed"
            }
          ]
        },
        "category": [
          {
            "coding": [
              {
                "system": "http://terminology.hl7.org/CodeSystem/condition-category",
                "code": "problem-list-item",
                "display": "Problem List Item"
              }
            ]
          }
        ],
        "code": {
          "coding": [
            {
              "system": "http://hl7.org/fhir/sid/icd-10",
              "code": "E11",
              "display": "Type 2 diabetes mellitus"
            }
          ]
        },
        "subject": {
          "reference": "IE-patient-66b404e7-6769-41f3-be7a-a5253d0f1afd",
          "display": "Patrick Murphy"
        }
      },
      "request": {
        "method": "PUT",
        "url": "Condition/IE-cond-c2c59d06-56b4-4d53-928d-0f305081b099"
      }
    },
    {
      "fullUrl": "http://Condition/IE-cond-ca5d45a8-97d1-4f68-9ce4-ae19c31873c5",
      "resource": {
        "resourceType": "Condition",
        "id": "IE-cond-ca5d45a8-97d1-4f68-9ce4-ae19c31873c5",
        "identifier": [
          {
            "use": "official",
            "value": "ca5d45a8-97d1-4f68-9ce4-ae19c31873c5"
          }
        ],
        "clinicalStatus": {
          "coding": [
            {
              "system": "http://terminology.hl7.org/CodeSystem/condition-clinical",
              "code": "active",
              "display": "Active"
            }
          ]
        },
        "verificationStatus": {
          "coding": [
            {
              "system": "http://terminology.hl7.org/CodeSystem/condition-ver-status",
              "code": "confirmed",
              "display": "Confirmed"
            }
          ]
        },
        "category": [
          {
            "coding": [
              {
                "system": "http://terminology.hl7.org/CodeSystem/condition-category",
                "code": "problem-list-item",
                "display": "Problem List Item"
              }
            ]
          }
        ],
        "code": {
          "coding": [
            {
              "system": "http://hl7.org/fhir/sid/icd-10",
              "code": "E11",
              "display": "Type 2 diabetes mellitus"
            }
          ]
        },
        "subject": {
          "reference": "IE-patient-66b404e7-6769-41f3-be7a-a5253d0f1afd",
          "display": "Patrick Murphy"
        }
      },
      "request": {
        "method": "PUT",
        "url": "Condition/IE-cond-ca5d45a8-97d1-4f68-9ce4-ae19c31873c5"
      }
    },
    {
      "fullUrl": "http://MedicationStatement/IE-medstat-619d61cf-e6c0-4b76-924e-50fab5afcef6",
      "resource": {
        "resourceType": "MedicationStatement",
        "id": "IE-medstat-619d61cf-e6c0-4b76-924e-50fab5afcef6",
        "identifier": [
          {
            "use": "official",
            "system": "http://medication.1",
            "value": "2.16.17.710.813.1000.990.1.8"
          }
        ],
        "status": "active",
        "effectiveDateTime": "2024-06-01T00:00:00Z",
        "subject": {
          "reference": "IE-patient-66b404e7-6769-41f3-be7a-a5253d0f1afd",
          "display": "Patrick Murphy"
        },
        "dosage": [
          {
            "timing": {
              "repeat": {
                "period": 1,
                "periodUnit": "d"
              }
            },
            "doseAndRate": [
              {
                "doseQuantity": {
                  "unit": "1",
                  "system": "http://unitsofmeasure.org/ucum.html"
                }
              }
            ]
          }
        ],
        "medicationCodeableConcept": {
          "coding": [
            {
              "system": "http://www.whocc.no/atc",
              "code": "A10AE04",
              "display": "insulin glargine"
            }
          ],
          "text": "LANTUS Solostar INJ.SOL 100 IU/ML"
        }
      },
      "request": {
        "method": "PUT",
        "url": "MedicationStatement/IE-medstat-619d61cf-e6c0-4b76-924e-50fab5afcef6"
      }
    },
    {
      "fullUrl": "http://Organization/IE-org-a7c45450-105a-43aa-985c-ea8bd5b0b1cc",
      "resource": {
        "resourceType": "Organization",
        "id": "IE-org-a7c45450-105a-43aa-985c-ea8bd5b0b1cc",
        "identifier": [
          {
            "use": "official",
            "system": "http://mhec.gov.ie",
            "value": "2.16.17.710.813.1000.990.1.5"
          }
        ],
        "name": "Health Service Executive",
        "contact": [
          {
            "telecom": [
              {
                "system": "email",
                "value": "tel:0",
                "use": "work"
              }
            ],
            "address": {
              "line": [
                "Dr. Steeven's Hospital, Steeven's Lane"
              ],
              "city": "Dublin 8",
              "postalCode": "W91 XP83",
              "country": "IE"
            }
          }
        ]
      },
      "request": {
        "method": "PUT",
        "url": "Organization/IE-org-a7c45450-105a-43aa-985c-ea8bd5b0b1cc"
      }
    },
    {
      "fullUrl": "http://Patient/IE-patient-66b404e7-6769-41f3-be7a-a5253d0f1afd",
      "resource": {
        "resourceType": "Patient",
        "id": "IE-patient-66b404e7-6769-41f3-be7a-a5253d0f1afd",
        "identifier": [
          {
            "use": "official",
            "system": "http://legal.authenticator.gov.ie",
            "value": "1.2.372.980010.1.2"
          }
        ],
        "name": [
          {
            "family": "Murphy",
            "given": [
              "Patrick"
            ]
          }
        ],
        "telecom": [
          {
            "system": "phone",
            "value": "tel:+353-87-34376462",
            "use": "home"
          }
        ],
        "gender": "male",
        "birthDate": "1977-08-07",
        "address": [
          {
            "line": [
              "New Vista, Prosperous Road"
            ],
            "city": "Clane",
            "postalCode": "W91 XP83",
            "country": "IE"
          }
        ]
      },
      "request": {
        "method": "PUT",
        "url": "Patient/IE-patient-66b404e7-6769-41f3-be7a-a5253d0f1afd"
      }
    },
    {
      "fullUrl": "http://Practitioner/IE-pract-ab4763e2-669f-4ff9-a8a8-98f24ce72c26",
      "resource": {
        "resourceType": "Practitioner",
        "id": "IE-pract-ab4763e2-669f-4ff9-a8a8-98f24ce72c26",
        "identifier": [
          {
            "use": "official",
            "system": "http://legal.authenticator.gov.ie",
            "value": "2.16.17.710.813.1000.990.1.4"
          }
        ],
        "name": [
          {
            "family": "MacNeill",
            "given": [
              "Minister Carroll"
            ]
          }
        ],
        "telecom": [
          {
            "system": "email",
            "value": "tel:0"
          }
        ],
        "address": [
          {
            "line": [
              "Block 1, Miesian Plaza, 50 - 58 Lower Baggot Street"
            ],
            "city": "Dublin 2",
            "postalCode": "D02 XW14",
            "country": "IE"
          }
        ]
      },
      "request": {
        "method": "PUT",
        "url": "Practitioner/IE-pract-ab4763e2-669f-4ff9-a8a8-98f24ce72c26"
      }
    },
    {
      "fullUrl": "http://Procedure/IE-proc-818944bd-f397-403f-a571-8e9aca5f3119",
      "resource": {
        "resourceType": "Procedure",
        "id": "IE-proc-818944bd-f397-403f-a571-8e9aca5f3119",
        "text": {
          "status": "generated",
          "div": "<div xmlns=\"http://www.w3.org/1999/xhtml\">Biopsy procedure performed on Patrick Murphy on 2023-01-01.</div>"
        },
        "identifier": [
          {
            "use": "official",
            "system": "urn:oid:2.16.17.710.813.1000.990.1.6",
            "value": "procedure"
          }
        ],
        "status": "completed",
        "code": {
          "coding": [
            {
              "system": "http://snomed.info/sct",
              "code": "86273004",
              "display": "Biopsy"
            }
          ]
        },
        "subject": {
          "reference": "IE-patient-66b404e7-6769-41f3-be7a-a5253d0f1afd",
          "display": "Patrick Murphy"
        },
        "performedDateTime": "2023-01-01T10:00:00Z"
      },
      "request": {
        "method": "PUT",
        "url": "Procedure/IE-proc-818944bd-f397-403f-a571-8e9aca5f3119"
      }
    },
    {
      "fullUrl": "http://Procedure/IE-proc-ab95d227-92d9-4a68-a43f-6fc99224d6c3",
      "resource": {
        "resourceType": "Procedure",
        "id": "IE-proc-ab95d227-92d9-4a68-a43f-6fc99224d6c3",
        "text": {
          "status": "generated",
          "div": "<div xmlns=\"http://www.w3.org/1999/xhtml\">Operative procedure on hand performed for patient Patrick Murphy on 2023-01-01.</div>"
        },
        "identifier": [
          {
            "use": "official",
            "system": "urn:oid:2.16.17.710.813.1000.990.1.6",
            "value": "procedure"
          }
        ],
        "status": "completed",
        "code": {
          "coding": [
            {
              "system": "http://hl7.org/fhir/sid/icd-10",
              "code": "S62.3",
              "display": "Fracture of other metacarpal bone"
            }
          ]
        },
        "subject": {
          "reference": "IE-patient-66b404e7-6769-41f3-be7a-a5253d0f1afd",
          "display": "Patrick Murphy"
        },
        "performedDateTime": "2023-01-01T10:00:00Z"
      },
      "request": {
        "method": "PUT",
        "url": "Procedure/IE-proc-ab95d227-92d9-4a68-a43f-6fc99224d6c3"
      }
    },
    {
      "fullUrl": "http://MedicationStatement/IE-medstat-21ce4629-c51a-4b9c-8e3f-39f629cccd3b",
      "resource": {
        "resourceType": "MedicationStatement",
        "id": "IE-medstat-21ce4629-c51a-4b9c-8e3f-39f629cccd3b",
        "identifier": [
          {
            "use": "official",
            "system": "http://medication.2",
            "value": "2.16.17.710.813.1000.990.1.10"
          }
        ],
        "status": "active",
        "effectiveDateTime": "2024-06-01T00:00:00Z",
        "subject": {
          "reference": "IE-patient-66b404e7-6769-41f3-be7a-a5253d0f1afd",
          "display": "Patrick Murphy"
        },
        "dosage": [
          {
            "timing": {
              "repeat": {
                "period": 1,
                "periodUnit": "d"
              }
            },
            "doseAndRate": [
              {
                "doseQuantity": {
                  "unit": "1",
                  "system": "http://unitsofmeasure.org/ucum.html"
                }
              }
            ]
          }
        ],
        "medicationCodeableConcept": {
          "coding": [
            {
              "system": "http://www.whocc.no/atc",
              "code": "A10AE04",
              "display": "insulin glargine"
            }
          ],
          "text": "LANTUS Solostar INJ.SOL 100 IU/ML"
        }
      },
      "request": {
        "method": "PUT",
        "url": "MedicationStatement/IE-medstat-21ce4629-c51a-4b9c-8e3f-39f629cccd3b"
      }
    },
    {
      "fullUrl": "http://AllergyIntolerance/IE-allergy-c4f082a5-7c68-4bb9-aaaf-d6e17c93903f",
      "resource": {
        "resourceType": "AllergyIntolerance",
        "id": "IE-allergy-c4f082a5-7c68-4bb9-aaaf-d6e17c93903f",
        "identifier": [
          {
            "use": "official",
            "system": "http://allergy.3.obs.1",
            "value": "2.16.17.710.813.1000.990.1.11"
          }
        ],
        "code": {
          "coding": [
            {
              "system": "http://snomed.info/sct",
              "code": "91936005",
              "display": "Allergy to penicillin"
            }
          ],
          "text": "Penicillin"
        },
        "clinicalStatus": {
          "coding": [
            {
              "system": "http://terminology.hl7.org/CodeSystem/allergyintolerance-clinical",
              "code": "active",
              "display": "Active"
            }
          ]
        },
        "verificationStatus": {
          "coding": [
            {
              "system": "http://terminology.hl7.org/CodeSystem/allergyintolerance-verification",
              "code": "confirmed",
              "display": "confirmed"
            }
          ]
        },
        "patient": {
          "reference": "IE-patient-66b404e7-6769-41f3-be7a-a5253d0f1afd",
          "display": "Patrick Murphy"
        },
        "recordedDate": "2000-01-01",
        "reaction": [
          {
            "substance": {
              "coding": [
                {
                  "system": "http://snomed.info/sct",
                  "code": "91936005",
                  "display": "Penicillin"
                }
              ],
              "text": "Penicillin"
            },
            "manifestation": [
              {
                "coding": [
                  {
                    "system": "http://snomed.info/sct",
                    "code": "271807003",
                    "display": "Rash"
                  }
                ],
                "text": "Rash"
              }
            ]
          }
        ]
      },
      "request": {
        "method": "PUT",
        "url": "AllergyIntolerance/IE-allergy-c4f082a5-7c68-4bb9-aaaf-d6e17c93903f"
      }
    }
  ],
  "id": "IE-gazelle-patient-summary-combined",
  "meta": {
    "tag": [
      {
        "system": "http://ehds.ie/country",
        "code": "IE",
        "display": "Ireland"
      }
    ]
  }
}